Voltage [V]	Current [A]
-2.000000E-1	-7.656430E-6
-1.950000E-1	-7.889400E-6
-1.900000E-1	-8.025720E-6
-1.850000E-1	-8.070380E-6
-1.800000E-1	-7.993240E-6
-1.750000E-1	-7.854180E-6
-1.700000E-1	-7.710880E-6
-1.650000E-1	-7.436030E-6
-1.600000E-1	-7.117810E-6
-1.550000E-1	-6.751260E-6
-1.500000E-1	-6.334100E-6
-1.450000E-1	-5.910680E-6
-1.400000E-1	-5.475690E-6
-1.350000E-1	-5.034160E-6
-1.300000E-1	-4.589790E-6
-1.250000E-1	-4.138110E-6
-1.200000E-1	-3.682340E-6
-1.150000E-1	-3.232450E-6
-1.100000E-1	-2.776000E-6
-1.050000E-1	-2.326930E-6
-1.000000E-1	-1.873720E-6
-9.500001E-2	-1.424040E-6
-9.000000E-2	-9.765590E-7
-8.500001E-2	-5.277040E-7
-8.000001E-2	-1.620510E-8
-7.500000E-2	3.696170E-7
-7.000001E-2	8.199090E-7
-6.500001E-2	1.273870E-6
-6.000000E-2	1.730470E-6
-5.500001E-2	2.192950E-6
-5.000001E-2	2.657390E-6
-4.500000E-2	3.139620E-6
-4.000001E-2	3.622050E-6
-3.500001E-2	4.114530E-6
-3.000000E-2	4.620620E-6
-2.500001E-2	5.139010E-6
-2.000001E-2	5.669290E-6
-1.500000E-2	6.220670E-6
-1.000001E-2	6.772710E-6
-5.000010E-3	7.357870E-6
-1.490116E-8	7.954130E-6
4.999995E-3	8.575840E-6
9.999990E-3	9.217900E-6
1.499999E-2	9.872050E-6
2.000000E-2	1.056100E-5
2.499999E-2	1.126700E-5
2.999999E-2	1.199290E-5
3.500000E-2	1.273340E-5
3.999999E-2	1.352910E-5
4.499999E-2	1.434840E-5
5.000000E-2	1.516280E-5
5.499999E-2	1.603780E-5
5.999999E-2	1.691870E-5
6.499998E-2	1.780980E-5
6.999998E-2	1.874110E-5
7.500000E-2	1.970140E-5
8.000000E-2	2.070190E-5
8.499999E-2	2.172810E-5
8.999999E-2	2.280660E-5
9.499998E-2	2.387510E-5
9.999998E-2	2.495040E-5
1.050000E-1	2.609090E-5
1.100000E-1	2.724220E-5
1.150000E-1	2.843290E-5
1.200000E-1	2.964040E-5
1.250000E-1	3.088560E-5
1.300000E-1	3.211950E-5
1.350000E-1	3.343880E-5
1.400000E-1	3.467240E-5
1.450000E-1	3.602270E-5
1.500000E-1	3.736820E-5
1.550000E-1	3.866350E-5
1.600000E-1	4.007030E-5
1.650000E-1	4.145850E-5
1.700000E-1	4.285700E-5
1.750000E-1	4.429860E-5
1.800000E-1	4.566990E-5
1.850000E-1	4.713280E-5
1.900000E-1	4.853260E-5
1.950000E-1	4.997040E-5
2.000000E-1	5.145910E-5
2.050000E-1	5.290690E-5
2.100000E-1	5.434120E-5
2.150000E-1	5.575550E-5
2.200000E-1	5.719530E-5
2.250000E-1	5.868850E-5
2.300000E-1	6.018360E-5
2.350000E-1	6.153320E-5
2.400000E-1	6.293820E-5
2.450000E-1	6.429820E-5
2.500000E-1	6.577440E-5
2.550000E-1	6.714930E-5
2.600000E-1	6.854160E-5
2.650000E-1	6.974330E-5
2.700000E-1	7.119090E-5
2.750000E-1	7.262760E-5
2.800000E-1	7.387490E-5
2.850000E-1	7.519020E-5
2.900000E-1	7.625760E-5
2.950000E-1	7.760910E-5
3.000000E-1	7.885010E-5
3.050000E-1	8.010720E-5
3.100000E-1	8.124410E-5
3.150000E-1	8.236220E-5
3.200000E-1	8.360710E-5
3.250000E-1	8.474830E-5
3.300000E-1	8.580490E-5
3.350000E-1	8.694680E-5
3.400000E-1	8.797340E-5
3.450000E-1	8.892200E-5
3.500000E-1	9.002030E-5
3.550000E-1	9.124850E-5
3.600000E-1	9.203000E-5
3.650000E-1	9.292130E-5
3.700000E-1	9.393370E-5
3.750000E-1	9.500800E-5
3.800000E-1	9.590770E-5
3.850000E-1	9.682010E-5
3.900000E-1	9.766880E-5
3.950000E-1	9.861150E-5
4.000000E-1	9.958610E-5
4.050000E-1	1.001160E-4
4.100000E-1	1.009170E-4
4.150000E-1	1.016510E-4
4.200000E-1	1.023990E-4
4.250000E-1	1.031770E-4
4.300000E-1	1.040060E-4
4.350000E-1	1.047120E-4
4.400000E-1	1.055390E-4
4.450000E-1	1.062300E-4
4.500000E-1	1.069560E-4
4.550000E-1	1.076140E-4
4.600000E-1	1.083360E-4
4.650000E-1	1.090430E-4
4.700000E-1	1.096900E-4
4.750000E-1	1.104050E-4
4.800000E-1	1.110690E-4
4.850000E-1	1.115600E-4
4.900000E-1	1.122760E-4
4.950000E-1	1.128490E-4
5.000000E-1	1.134960E-4
5.050000E-1	1.141560E-4
5.100000E-1	1.145790E-4
5.150000E-1	1.150440E-4
5.200000E-1	1.157080E-4
5.250000E-1	1.163440E-4
5.300000E-1	1.168330E-4
5.350000E-1	1.172870E-4
5.400000E-1	1.179590E-4
5.450000E-1	1.183860E-4
5.500000E-1	1.187340E-4
5.550000E-1	1.195030E-4
5.600000E-1	1.200480E-4
5.650000E-1	1.206180E-4
5.700000E-1	1.210400E-4
5.750000E-1	1.213860E-4
5.800000E-1	1.219800E-4
5.850000E-1	1.224420E-4
5.900000E-1	1.229900E-4
5.950000E-1	1.234690E-4
6.000000E-1	1.238910E-4
6.050000E-1	1.243270E-4
6.100000E-1	1.248780E-4
6.150000E-1	1.252610E-4
6.200000E-1	1.257820E-4
6.250000E-1	1.262610E-4
6.300000E-1	1.268130E-4
6.350000E-1	1.273180E-4
6.400000E-1	1.275500E-4
6.450000E-1	1.280480E-4
6.500000E-1	1.284160E-4
6.550000E-1	1.289930E-4
6.600000E-1	1.295460E-4
6.650000E-1	1.297970E-4
6.700000E-1	1.302290E-4
6.750000E-1	1.308410E-4
6.800000E-1	1.311450E-4
6.850000E-1	1.315160E-4
6.900000E-1	1.319860E-4
6.950000E-1	1.323470E-4
7.000000E-1	1.327690E-4
7.050000E-1	1.331660E-4
7.100000E-1	1.333460E-4
7.150000E-1	1.338120E-4
7.200000E-1	1.341950E-4
7.250000E-1	1.347170E-4
7.300000E-1	1.350490E-4
7.350000E-1	1.354010E-4
7.400000E-1	1.355590E-4
7.450000E-1	1.359500E-4
7.500000E-1	1.400780E-4
7.550000E-1	1.413770E-4
7.600000E-1	1.418220E-4
7.650000E-1	1.425050E-4
7.700000E-1	1.438560E-4
7.750000E-1	1.445640E-4
7.800000E-1	1.454900E-4
7.850000E-1	1.467960E-4
7.900000E-1	1.461690E-4
7.950000E-1	1.479820E-4
8.000000E-1	1.489560E-4
