Voltage [V]	Current [A]
-2.000000E-1	-1.444390E-2
-1.950000E-1	-1.444960E-2
-1.900000E-1	-1.443880E-2
-1.850000E-1	-1.442910E-2
-1.800000E-1	-1.444480E-2
-1.750000E-1	-1.443870E-2
-1.700000E-1	-1.444320E-2
-1.650000E-1	-1.442870E-2
-1.600000E-1	-1.441560E-2
-1.550000E-1	-1.442910E-2
-1.500000E-1	-1.445190E-2
-1.450000E-1	-1.442360E-2
-1.400000E-1	-1.439910E-2
-1.350000E-1	-1.441440E-2
-1.300000E-1	-1.442920E-2
-1.250000E-1	-1.441250E-2
-1.200000E-1	-1.443480E-2
-1.150000E-1	-1.442940E-2
-1.100000E-1	-1.443250E-2
-1.050000E-1	-1.445660E-2
-1.000000E-1	-1.442830E-2
-9.500001E-2	-1.443220E-2
-9.000000E-2	-1.444780E-2
-8.500001E-2	-1.444230E-2
-8.000001E-2	-1.444330E-2
-7.500000E-2	-1.445320E-2
-7.000001E-2	-1.444320E-2
-6.500001E-2	-1.443540E-2
-6.000000E-2	-1.446070E-2
-5.500001E-2	-1.444920E-2
-5.000001E-2	-1.442250E-2
-4.500000E-2	-1.441730E-2
-4.000001E-2	-1.443740E-2
-3.500001E-2	-1.443980E-2
-3.000000E-2	-1.444640E-2
-2.500001E-2	-1.445420E-2
-2.000001E-2	-1.444020E-2
-1.500000E-2	-1.443210E-2
-1.000001E-2	-1.443390E-2
-5.000010E-3	-1.443810E-2
-1.490116E-8	-1.442390E-2
4.999995E-3	-1.444730E-2
9.999990E-3	-1.443080E-2
1.499999E-2	-1.444430E-2
2.000000E-2	-1.443650E-2
2.499999E-2	-1.444620E-2
2.999999E-2	-1.444780E-2
3.500000E-2	-1.442320E-2
3.999999E-2	-1.442450E-2
4.499999E-2	-1.442750E-2
5.000000E-2	-1.441900E-2
5.499999E-2	-1.442430E-2
5.999999E-2	-1.443090E-2
6.499998E-2	-1.444930E-2
6.999998E-2	-1.442670E-2
7.500000E-2	-1.441680E-2
8.000000E-2	-1.439700E-2
8.499999E-2	-1.441560E-2
8.999999E-2	-1.441510E-2
9.499998E-2	-1.441250E-2
9.999998E-2	-1.441260E-2
1.050000E-1	-1.439630E-2
1.100000E-1	-1.440330E-2
1.150000E-1	-1.439610E-2
1.200000E-1	-1.438600E-2
1.250000E-1	-1.440810E-2
1.300000E-1	-1.439890E-2
1.350000E-1	-1.438860E-2
1.400000E-1	-1.440080E-2
1.450000E-1	-1.440270E-2
1.500000E-1	-1.439840E-2
1.550000E-1	-1.439030E-2
1.600000E-1	-1.439930E-2
1.650000E-1	-1.439250E-2
1.700000E-1	-1.441260E-2
1.750000E-1	-1.440320E-2
1.800000E-1	-1.441410E-2
1.850000E-1	-1.438340E-2
1.900000E-1	-1.439060E-2
1.950000E-1	-1.437530E-2
2.000000E-1	-1.437520E-2
2.050000E-1	-1.436310E-2
2.100000E-1	-1.436610E-2
2.150000E-1	-1.437040E-2
2.200000E-1	-1.433120E-2
2.250000E-1	-1.433200E-2
2.300000E-1	-1.432070E-2
2.350000E-1	-1.431100E-2
2.400000E-1	-1.433520E-2
2.450000E-1	-1.432130E-2
2.500000E-1	-1.434600E-2
2.550000E-1	-1.431240E-2
2.600000E-1	-1.428040E-2
2.650000E-1	-1.428260E-2
2.700000E-1	-1.428410E-2
2.750000E-1	-1.427120E-2
2.800000E-1	-1.427030E-2
2.850000E-1	-1.426320E-2
2.900000E-1	-1.424300E-2
2.950000E-1	-1.420840E-2
3.000000E-1	-1.419970E-2
3.050000E-1	-1.420350E-2
3.100000E-1	-1.418310E-2
3.150000E-1	-1.415990E-2
3.200000E-1	-1.414190E-2
3.250000E-1	-1.413400E-2
3.300000E-1	-1.410880E-2
3.350000E-1	-1.407600E-2
3.400000E-1	-1.406690E-2
3.450000E-1	-1.404530E-2
3.500000E-1	-1.401480E-2
3.550000E-1	-1.395600E-2
3.600000E-1	-1.393670E-2
3.650000E-1	-1.391940E-2
3.700000E-1	-1.386680E-2
3.750000E-1	-1.386890E-2
3.800000E-1	-1.379850E-2
3.850000E-1	-1.378570E-2
3.900000E-1	-1.370020E-2
3.950000E-1	-1.365170E-2
4.000000E-1	-1.359110E-2
4.050000E-1	-1.351490E-2
4.100000E-1	-1.342610E-2
4.150000E-1	-1.333210E-2
4.200000E-1	-1.323750E-2
4.250000E-1	-1.314680E-2
4.300000E-1	-1.305510E-2
4.350000E-1	-1.290900E-2
4.400000E-1	-1.276020E-2
4.450000E-1	-1.257340E-2
4.500000E-1	-1.239260E-2
4.550000E-1	-1.216010E-2
4.600000E-1	-1.196560E-2
4.650000E-1	-1.165470E-2
4.700000E-1	-1.132800E-2
4.750000E-1	-1.094280E-2
4.800000E-1	-1.054130E-2
4.850000E-1	-1.006410E-2
4.900000E-1	-9.519550E-3
4.950000E-1	-8.902010E-3
5.000000E-1	-8.200750E-3
5.050000E-1	-7.412530E-3
5.100000E-1	-6.512090E-3
5.150000E-1	-5.496980E-3
5.200000E-1	-4.338940E-3
5.250000E-1	-3.062280E-3
5.300000E-1	-1.648110E-3
5.350000E-1	-7.812670E-5
5.400000E-1	1.648260E-3
5.450000E-1	3.531750E-3
5.500000E-1	5.589060E-3
5.550000E-1	7.784930E-3
5.600000E-1	1.015510E-2
5.650000E-1	1.269240E-2
5.700000E-1	1.538280E-2
5.750000E-1	1.823740E-2
5.800000E-1	2.122320E-2
5.850000E-1	2.436880E-2
5.900000E-1	2.764880E-2
5.950000E-1	3.107900E-2
6.000000E-1	3.462200E-2
6.050000E-1	3.828680E-2
6.100000E-1	4.206380E-2
6.150000E-1	4.594910E-2
6.200000E-1	4.993100E-2
6.250000E-1	5.400720E-2
6.300000E-1	5.817900E-2
6.350000E-1	6.243540E-2
6.400000E-1	6.676750E-2
6.450000E-1	7.115720E-2
6.500000E-1	7.564170E-2
6.550000E-1	8.018590E-2
6.600000E-1	8.479780E-2
6.650000E-1	8.947150E-2
6.700000E-1	9.419150E-2
6.750000E-1	9.897820E-2
6.800000E-1	1.036980E-1
6.850000E-1	1.085610E-1
6.900000E-1	1.135090E-1
6.950000E-1	1.184820E-1
7.000000E-1	1.234960E-1
