Voltage [V]	Current [A]
-2.000000E-1	-5.788990E-2
-1.950000E-1	-5.787160E-2
-1.900000E-1	-5.800130E-2
-1.850000E-1	-5.794410E-2
-1.800000E-1	-5.802490E-2
-1.750000E-1	-5.795960E-2
-1.700000E-1	-5.799380E-2
-1.650000E-1	-5.804940E-2
-1.600000E-1	-5.798050E-2
-1.550000E-1	-5.805840E-2
-1.500000E-1	-5.806720E-2
-1.450000E-1	-5.806620E-2
-1.400000E-1	-5.802800E-2
-1.350000E-1	-5.787530E-2
-1.300000E-1	-5.801420E-2
-1.250000E-1	-5.793640E-2
-1.200000E-1	-5.797840E-2
-1.150000E-1	-5.808170E-2
-1.100000E-1	-5.788670E-2
-1.050000E-1	-5.798890E-2
-1.000000E-1	-5.809130E-2
-9.500001E-2	-5.792930E-2
-9.000000E-2	-5.803530E-2
-8.500001E-2	-5.802750E-2
-8.000001E-2	-5.786070E-2
-7.500000E-2	-5.800700E-2
-7.000001E-2	-5.804650E-2
-6.500001E-2	-5.789530E-2
-6.000000E-2	-5.797530E-2
-5.500001E-2	-5.790930E-2
-5.000001E-2	-5.791960E-2
-4.500000E-2	-5.797830E-2
-4.000001E-2	-5.792140E-2
-3.500001E-2	-5.793390E-2
-3.000000E-2	-5.785940E-2
-2.500001E-2	-5.803800E-2
-2.000001E-2	-5.777070E-2
-1.500000E-2	-5.795200E-2
-1.000001E-2	-5.800010E-2
-5.000010E-3	-5.787870E-2
-1.490116E-8	-5.803800E-2
4.999995E-3	-1.506070E-3
9.999990E-3	-1.511920E-3
1.499999E-2	-1.497330E-3
2.000000E-2	-1.297110E-3
2.499999E-2	-1.478980E-3
2.999999E-2	-1.521460E-3
3.500000E-2	-1.322980E-3
3.999999E-2	-1.519250E-3
4.499999E-2	-1.303040E-3
5.000000E-2	-1.537300E-3
5.499999E-2	-1.526830E-3
5.999999E-2	-1.537030E-3
6.499998E-2	-1.317970E-3
6.999998E-2	-1.323920E-3
7.500000E-2	-1.578370E-3
8.000000E-2	-1.333520E-3
8.499999E-2	-1.344880E-3
8.999999E-2	-1.361470E-3
9.499998E-2	-1.627820E-3
9.999998E-2	-1.617730E-3
1.050000E-1	-1.663700E-3
1.100000E-1	-1.640120E-3
1.150000E-1	-1.399850E-3
1.200000E-1	-1.680970E-3
1.250000E-1	-1.569970E-3
1.300000E-1	-1.704570E-3
1.350000E-1	-1.711360E-3
1.400000E-1	-1.659950E-3
1.450000E-1	-1.482930E-3
1.500000E-1	-1.480500E-3
1.550000E-1	-5.786540E-2
1.600000E-1	-5.803720E-2
1.650000E-1	-5.783070E-2
1.700000E-1	-5.785320E-2
1.750000E-1	-5.795810E-2
1.800000E-1	-5.793120E-2
1.850000E-1	-5.794550E-2
1.900000E-1	-5.785060E-2
1.950000E-1	-5.785270E-2
2.000000E-1	-5.784710E-2
2.050000E-1	-5.778690E-2
2.100000E-1	-5.786310E-2
2.150000E-1	-5.783650E-2
2.200000E-1	-5.794080E-2
2.250000E-1	-5.782350E-2
2.300000E-1	-5.788040E-2
2.350000E-1	-5.778170E-2
2.400000E-1	-5.787670E-2
2.450000E-1	-5.781580E-2
2.500000E-1	-5.777290E-2
2.550000E-1	-5.780900E-2
2.600000E-1	-5.777620E-2
2.650000E-1	-5.770490E-2
2.700000E-1	-5.768240E-2
2.750000E-1	-5.771990E-2
2.800000E-1	-2.306600E-3
2.850000E-1	-2.982880E-3
2.900000E-1	-3.567930E-3
2.950000E-1	-3.833350E-3
3.000000E-1	-3.319650E-2
3.050000E-1	-5.137940E-2
3.100000E-1	-5.131210E-2
3.150000E-1	-5.140690E-2
3.200000E-1	-5.135640E-2
3.250000E-1	-5.137240E-2
3.300000E-1	-5.137220E-2
3.350000E-1	-5.150010E-2
3.400000E-1	-5.149940E-2
3.450000E-1	-5.150090E-2
3.500000E-1	-5.145630E-2
3.550000E-1	-5.155210E-2
3.600000E-1	-5.160260E-2
3.650000E-1	-5.166500E-2
3.700000E-1	-5.166110E-2
3.750000E-1	-5.180910E-2
3.800000E-1	-5.188010E-2
3.850000E-1	-5.198110E-2
3.900000E-1	-5.215970E-2
3.950000E-1	-5.247690E-2
4.000000E-1	-5.272440E-2
4.050000E-1	-5.299230E-2
4.100000E-1	-5.325890E-2
4.150000E-1	-5.381090E-2
4.200000E-1	-5.447760E-2
4.250000E-1	-5.516010E-2
4.300000E-1	-5.494350E-2
4.350000E-1	-5.464720E-2
4.400000E-1	-5.419240E-2
4.450000E-1	-5.378620E-2
4.500000E-1	-5.322640E-2
4.550000E-1	-5.262900E-2
4.600000E-1	-5.185380E-2
4.650000E-1	-5.115170E-2
4.700000E-1	-5.044440E-2
4.750000E-1	-4.944640E-2
4.800000E-1	-4.833600E-2
4.850000E-1	-4.706600E-2
4.900000E-1	-4.570300E-2
4.950000E-1	-4.428450E-2
5.000000E-1	-4.267060E-2
5.050000E-1	-4.082350E-2
5.100000E-1	-3.880140E-2
5.150000E-1	-3.669540E-2
5.200000E-1	-3.447620E-2
5.250000E-1	-3.203790E-2
5.300000E-1	-2.943760E-2
5.350000E-1	-2.670220E-2
5.400000E-1	-2.378300E-2
5.450000E-1	-2.070980E-2
5.500000E-1	-1.749100E-2
5.550000E-1	-1.418760E-2
5.600000E-1	-1.073610E-2
5.650000E-1	-7.127630E-3
5.700000E-1	-3.446950E-3
5.750000E-1	4.011360E-4
5.800000E-1	4.293180E-3
5.850000E-1	8.323890E-3
5.900000E-1	1.240990E-2
5.950000E-1	1.659480E-2
6.000000E-1	2.089890E-2
6.050000E-1	2.523500E-2
6.100000E-1	2.965510E-2
6.150000E-1	3.412130E-2
6.200000E-1	3.869490E-2
6.250000E-1	4.333040E-2
6.300000E-1	4.802310E-2
6.350000E-1	5.274780E-2
6.400000E-1	5.752990E-2
6.450000E-1	6.234780E-2
6.500000E-1	6.724190E-2
6.550000E-1	7.217190E-2
6.600000E-1	7.715070E-2
6.650000E-1	8.217640E-2
6.700000E-1	8.724880E-2
6.750000E-1	9.235590E-2
6.800000E-1	9.747420E-2
6.850000E-1	1.024290E-1
6.900000E-1	1.076570E-1
6.950000E-1	1.128720E-1
7.000000E-1	1.181150E-1
