Voltage [V]	Current [A]
-2.000000E-1	-4.240400E-4
-1.950000E-1	-4.135060E-4
-1.900000E-1	-4.030040E-4
-1.850000E-1	-3.925770E-4
-1.800000E-1	-3.819060E-4
-1.750000E-1	-3.713470E-4
-1.700000E-1	-3.607900E-4
-1.650000E-1	-3.500370E-4
-1.600000E-1	-3.395380E-4
-1.550000E-1	-3.288070E-4
-1.500000E-1	-3.181620E-4
-1.450000E-1	-3.075560E-4
-1.400000E-1	-2.968370E-4
-1.350000E-1	-2.862550E-4
-1.300000E-1	-2.755890E-4
-1.250000E-1	-2.650040E-4
-1.200000E-1	-2.544410E-4
-1.150000E-1	-2.437200E-4
-1.100000E-1	-2.331210E-4
-1.050000E-1	-2.225560E-4
-1.000000E-1	-2.119520E-4
-9.500001E-2	-2.012200E-4
-9.000000E-2	-1.906800E-4
-8.500001E-2	-1.800900E-4
-8.000001E-2	-1.695320E-4
-7.500000E-2	-1.588760E-4
-7.000001E-2	-1.483000E-4
-6.500001E-2	-1.377220E-4
-6.000000E-2	-1.271680E-4
-5.500001E-2	-1.165520E-4
-5.000001E-2	-1.059180E-4
-4.500000E-2	-9.531760E-5
-4.000001E-2	-8.474870E-5
-3.500001E-2	-7.413400E-5
-3.000000E-2	-6.353800E-5
-2.500001E-2	-5.296010E-5
-2.000001E-2	-4.237420E-5
-1.500000E-2	-3.176090E-5
-1.000001E-2	-2.116410E-5
-5.000010E-3	-1.055820E-5
-1.490116E-8	1.959830E-8
4.999995E-3	1.054080E-5
9.999990E-3	2.112510E-5
1.499999E-2	3.171440E-5
2.000000E-2	4.231970E-5
2.499999E-2	5.286360E-5
2.999999E-2	6.347790E-5
3.500000E-2	7.403150E-5
3.999999E-2	8.456890E-5
4.499999E-2	9.515970E-5
5.000000E-2	1.057560E-4
5.499999E-2	1.162920E-4
5.999999E-2	1.269420E-4
6.499998E-2	1.375050E-4
6.999998E-2	1.481100E-4
7.500000E-2	1.586050E-4
8.000000E-2	1.691940E-4
8.499999E-2	1.797240E-4
8.999999E-2	1.902460E-4
9.499998E-2	2.007970E-4
9.999998E-2	2.113490E-4
1.050000E-1	2.219550E-4
1.100000E-1	2.325270E-4
1.150000E-1	2.431140E-4
1.200000E-1	2.536460E-4
1.250000E-1	2.643060E-4
1.300000E-1	2.748440E-4
1.350000E-1	2.854760E-4
1.400000E-1	2.959970E-4
1.450000E-1	3.065980E-4
1.500000E-1	3.171210E-4
1.550000E-1	3.277230E-4
1.600000E-1	3.379580E-4
1.650000E-1	3.483650E-4
1.700000E-1	3.589120E-4
1.750000E-1	3.694300E-4
1.800000E-1	3.798880E-4
1.850000E-1	3.903850E-4
1.900000E-1	4.008930E-4
1.950000E-1	4.114610E-4
2.000000E-1	4.220280E-4
2.050000E-1	4.325550E-4
2.100000E-1	4.431320E-4
2.150000E-1	4.535760E-4
2.200000E-1	4.640900E-4
2.250000E-1	4.745070E-4
2.300000E-1	4.850220E-4
2.350000E-1	4.955060E-4
2.400000E-1	5.061030E-4
2.450000E-1	5.168460E-4
2.500000E-1	5.274140E-4
2.550000E-1	5.376310E-4
2.600000E-1	5.481600E-4
2.650000E-1	5.587090E-4
2.700000E-1	5.690850E-4
2.750000E-1	5.797480E-4
2.800000E-1	5.897820E-4
2.850000E-1	6.003480E-4
2.900000E-1	6.110930E-4
2.950000E-1	6.213320E-4
3.000000E-1	6.319000E-4
3.050000E-1	6.424410E-4
3.100000E-1	6.528570E-4
3.150000E-1	6.630550E-4
3.200000E-1	6.738900E-4
3.250000E-1	6.844180E-4
3.300000E-1	6.945940E-4
3.350000E-1	7.053970E-4
3.400000E-1	7.156880E-4
3.450000E-1	7.263100E-4
3.500000E-1	7.367250E-4
3.550000E-1	7.474540E-4
3.600000E-1	7.581740E-4
3.650000E-1	7.690280E-4
3.700000E-1	7.790340E-4
3.750000E-1	7.894690E-4
3.800000E-1	8.000850E-4
3.850000E-1	8.105790E-4
3.900000E-1	8.204030E-4
3.950000E-1	8.309540E-4
4.000000E-1	8.412820E-4
4.050000E-1	8.516990E-4
4.100000E-1	8.627040E-4
4.150000E-1	8.725290E-4
4.200000E-1	8.830820E-4
4.250000E-1	8.934160E-4
4.300000E-1	9.037300E-4
4.350000E-1	9.142860E-4
4.400000E-1	9.241720E-4
4.450000E-1	9.348840E-4
4.500000E-1	9.450420E-4
4.550000E-1	9.558270E-4
4.600000E-1	9.662520E-4
4.650000E-1	9.766790E-4
4.700000E-1	9.869180E-4
4.750000E-1	9.973630E-4
4.800000E-1	1.009390E-3
4.850000E-1	1.019660E-3
4.900000E-1	1.030570E-3
4.950000E-1	1.041480E-3
5.000000E-1	1.051880E-3
5.050000E-1	1.062080E-3
5.100000E-1	1.071740E-3
5.150000E-1	1.081710E-3
5.200000E-1	1.092620E-3
5.250000E-1	1.103020E-3
5.300000E-1	1.113250E-3
5.350000E-1	1.124250E-3
5.400000E-1	1.134580E-3
5.450000E-1	1.144220E-3
5.500000E-1	1.154390E-3
5.550000E-1	1.164950E-3
5.600000E-1	1.175340E-3
5.650000E-1	1.185990E-3
5.700000E-1	1.196270E-3
5.750000E-1	1.207030E-3
5.800000E-1	1.217720E-3
5.850000E-1	1.227880E-3
5.900000E-1	1.237930E-3
5.950000E-1	1.248530E-3
6.000000E-1	1.258760E-3
6.050000E-1	1.268550E-3
6.100000E-1	1.279120E-3
6.150000E-1	1.289820E-3
6.200000E-1	1.299500E-3
6.250000E-1	1.310930E-3
6.300000E-1	1.321080E-3
6.350000E-1	1.331380E-3
6.400000E-1	1.341340E-3
6.450000E-1	1.352180E-3
6.500000E-1	1.362520E-3
6.550000E-1	1.373120E-3
6.600000E-1	1.383970E-3
6.650000E-1	1.394050E-3
6.700000E-1	1.403570E-3
6.750000E-1	1.413960E-3
6.800000E-1	1.424540E-3
6.850000E-1	1.435000E-3
6.900000E-1	1.445160E-3
6.950000E-1	1.456020E-3
7.000000E-1	1.466460E-3
7.050000E-1	1.476780E-3
7.100000E-1	1.486340E-3
7.150000E-1	1.497520E-3
7.200000E-1	1.507150E-3
7.250000E-1	1.517030E-3
7.300000E-1	1.528060E-3
7.350000E-1	1.538310E-3
7.400000E-1	1.548690E-3
7.450000E-1	1.558720E-3
7.500000E-1	1.569580E-3
7.550000E-1	1.579850E-3
7.600000E-1	1.590050E-3
7.650000E-1	1.599890E-3
7.700000E-1	1.611200E-3
7.750000E-1	1.621340E-3
7.800000E-1	1.631710E-3
7.850000E-1	1.641820E-3
7.900000E-1	1.651590E-3
7.950000E-1	1.660990E-3
8.000000E-1	1.671660E-3
