Voltage [V]	Current [A]
-2.000000E-1	-5.363430E-4
-1.950000E-1	-5.230350E-4
-1.900000E-1	-5.095670E-4
-1.850000E-1	-4.960930E-4
-1.800000E-1	-4.826940E-4
-1.750000E-1	-4.692290E-4
-1.700000E-1	-4.559220E-4
-1.650000E-1	-4.425400E-4
-1.600000E-1	-4.290620E-4
-1.550000E-1	-4.156740E-4
-1.500000E-1	-4.021990E-4
-1.450000E-1	-3.888180E-4
-1.400000E-1	-3.753170E-4
-1.350000E-1	-3.619150E-4
-1.300000E-1	-3.484770E-4
-1.250000E-1	-3.350400E-4
-1.200000E-1	-3.216130E-4
-1.150000E-1	-3.081130E-4
-1.100000E-1	-2.947620E-4
-1.050000E-1	-2.812670E-4
-1.000000E-1	-2.679060E-4
-9.500001E-2	-2.544420E-4
-9.000000E-2	-2.410370E-4
-8.500001E-2	-2.276260E-4
-8.000001E-2	-2.142670E-4
-7.500000E-2	-2.008680E-4
-7.000001E-2	-1.874500E-4
-6.500001E-2	-1.740500E-4
-6.000000E-2	-1.606760E-4
-5.500001E-2	-1.472930E-4
-5.000001E-2	-1.338770E-4
-4.500000E-2	-1.204690E-4
-4.000001E-2	-1.070810E-4
-3.500001E-2	-9.370930E-5
-3.000000E-2	-8.029280E-5
-2.500001E-2	-6.688760E-5
-2.000001E-2	-5.351090E-5
-1.500000E-2	-4.011440E-5
-1.000001E-2	-2.673000E-5
-5.000010E-3	-1.334360E-5
-1.490116E-8	2.938720E-8
4.999995E-3	-4.426810E-9
9.999990E-3	2.671350E-5
1.499999E-2	4.009760E-5
2.000000E-2	5.348310E-5
2.499999E-2	6.687040E-5
2.999999E-2	8.027320E-5
3.500000E-2	9.366710E-5
3.999999E-2	1.070400E-4
4.499999E-2	1.204440E-4
5.000000E-2	1.338570E-4
5.499999E-2	1.472280E-4
5.999999E-2	1.606050E-4
6.499998E-2	1.739660E-4
6.999998E-2	1.873390E-4
7.500000E-2	2.007390E-4
8.000000E-2	2.140880E-4
8.499999E-2	2.274730E-4
8.999999E-2	2.408460E-4
9.499998E-2	2.542510E-4
9.999998E-2	2.676240E-4
1.050000E-1	2.809890E-4
1.100000E-1	2.943630E-4
1.150000E-1	3.077410E-4
1.200000E-1	3.211400E-4
1.250000E-1	3.344630E-4
1.300000E-1	3.477820E-4
1.350000E-1	3.611630E-4
1.400000E-1	3.745830E-4
1.450000E-1	3.879650E-4
1.500000E-1	4.012720E-4
1.550000E-1	4.147000E-4
1.600000E-1	4.280540E-4
1.650000E-1	4.414490E-4
1.700000E-1	4.548020E-4
1.750000E-1	4.681200E-4
1.800000E-1	4.815660E-4
1.850000E-1	4.948700E-4
1.900000E-1	5.081790E-4
1.950000E-1	5.214120E-4
2.000000E-1	5.347140E-4
2.050000E-1	5.480730E-4
2.100000E-1	5.615440E-4
2.150000E-1	5.748480E-4
2.200000E-1	5.882140E-4
2.250000E-1	6.016340E-4
2.300000E-1	6.149860E-4
2.350000E-1	6.282960E-4
2.400000E-1	6.416880E-4
2.450000E-1	6.550040E-4
2.500000E-1	6.683330E-4
2.550000E-1	6.816260E-4
2.600000E-1	6.949680E-4
2.650000E-1	7.082270E-4
2.700000E-1	7.216130E-4
2.750000E-1	7.349440E-4
2.800000E-1	7.483620E-4
2.850000E-1	7.616470E-4
2.900000E-1	7.750060E-4
2.950000E-1	7.885850E-4
3.000000E-1	8.018580E-4
3.050000E-1	8.152870E-4
3.100000E-1	8.287110E-4
3.150000E-1	8.420320E-4
3.200000E-1	8.554080E-4
3.250000E-1	8.687550E-4
3.300000E-1	8.819500E-4
3.350000E-1	8.954190E-4
3.400000E-1	9.088330E-4
3.450000E-1	9.221240E-4
3.500000E-1	9.354140E-4
3.550000E-1	9.487260E-4
3.600000E-1	9.621470E-4
3.650000E-1	9.753150E-4
3.700000E-1	9.885570E-4
3.750000E-1	1.003680E-3
3.800000E-1	1.017180E-3
3.850000E-1	1.030430E-3
3.900000E-1	1.043790E-3
3.950000E-1	1.057070E-3
4.000000E-1	1.070560E-3
4.050000E-1	1.083590E-3
4.100000E-1	1.097140E-3
4.150000E-1	1.110630E-3
4.200000E-1	1.123870E-3
4.250000E-1	1.137060E-3
4.300000E-1	1.150530E-3
4.350000E-1	1.163800E-3
4.400000E-1	1.176970E-3
4.450000E-1	1.190330E-3
4.500000E-1	1.203370E-3
4.550000E-1	1.217030E-3
4.600000E-1	1.230100E-3
4.650000E-1	1.243310E-3
4.700000E-1	1.256760E-3
4.750000E-1	1.270020E-3
4.800000E-1	1.283120E-3
4.850000E-1	1.296540E-3
4.900000E-1	1.309700E-3
4.950000E-1	1.322760E-3
5.000000E-1	1.336250E-3
5.050000E-1	1.349590E-3
5.100000E-1	1.363160E-3
5.150000E-1	1.376420E-3
5.200000E-1	1.389770E-3
5.250000E-1	1.403000E-3
5.300000E-1	1.416350E-3
5.350000E-1	1.429740E-3
5.400000E-1	1.443420E-3
5.450000E-1	1.456780E-3
5.500000E-1	1.470030E-3
5.550000E-1	1.483190E-3
5.600000E-1	1.496620E-3
5.650000E-1	1.509850E-3
5.700000E-1	1.523140E-3
5.750000E-1	1.536540E-3
5.800000E-1	1.549900E-3
5.850000E-1	1.563360E-3
5.900000E-1	1.576750E-3
5.950000E-1	1.589870E-3
6.000000E-1	1.602640E-3
6.050000E-1	1.616040E-3
6.100000E-1	1.629550E-3
6.150000E-1	1.642540E-3
6.200000E-1	1.655920E-3
6.250000E-1	1.669500E-3
6.300000E-1	1.682880E-3
6.350000E-1	1.696260E-3
6.400000E-1	1.708920E-3
6.450000E-1	1.722460E-3
6.500000E-1	1.735660E-3
6.550000E-1	1.748580E-3
6.600000E-1	1.762250E-3
6.650000E-1	1.775650E-3
6.700000E-1	1.789100E-3
6.750000E-1	1.802150E-3
6.800000E-1	1.815440E-3
6.850000E-1	1.828480E-3
6.900000E-1	1.841690E-3
6.950000E-1	1.854830E-3
7.000000E-1	1.868380E-3
7.050000E-1	1.881450E-3
7.100000E-1	1.894370E-3
7.150000E-1	1.907400E-3
7.200000E-1	1.920810E-3
7.250000E-1	1.934260E-3
7.300000E-1	1.947200E-3
7.350000E-1	1.960750E-3
7.400000E-1	1.973980E-3
7.450000E-1	1.986810E-3
7.500000E-1	2.000090E-3
7.550000E-1	2.013500E-3
7.600000E-1	2.026930E-3
7.650000E-1	2.040510E-3
7.700000E-1	2.053820E-3
7.750000E-1	2.067190E-3
7.800000E-1	2.080420E-3
7.850000E-1	2.094630E-3
7.900000E-1	2.107980E-3
7.950000E-1	2.121100E-3
8.000000E-1	2.134780E-3
