Voltage [V]	Current [A]
-3.000000E-1	-3.390690E-5
-2.900000E-1	-3.365330E-5
-2.800000E-1	-3.333080E-5
-2.700000E-1	-3.289420E-5
-2.600000E-1	-3.270930E-5
-2.500000E-1	-3.242250E-5
-2.400000E-1	-3.217160E-5
-2.300000E-1	-3.190180E-5
-2.200000E-1	-3.164350E-5
-2.100000E-1	-3.135640E-5
-2.000000E-1	-3.109730E-5
-1.900000E-1	-3.082850E-5
-1.800000E-1	-3.049320E-5
-1.700000E-1	-3.022830E-5
-1.600000E-1	-2.991360E-5
-1.500000E-1	-2.961910E-5
-1.400000E-1	-2.939060E-5
-1.300000E-1	-2.911360E-5
-1.200000E-1	-2.882340E-5
-1.100000E-1	-2.857550E-5
-1.000000E-1	-2.828510E-5
-9.000002E-2	-2.803040E-5
-8.000001E-2	-2.774530E-5
-7.000002E-2	-2.749240E-5
-6.000002E-2	-2.721290E-5
-5.000001E-2	-2.694140E-5
-4.000002E-2	-2.664590E-5
-3.000003E-2	-2.634710E-5
-2.000001E-2	-2.600340E-5
-1.000002E-2	-2.570270E-5
-2.980232E-8	-2.544560E-5
9.999990E-3	-2.518090E-5
1.999998E-2	-2.490610E-5
2.999997E-2	-2.466960E-5
3.999999E-2	-2.435430E-5
4.999998E-2	-2.404670E-5
5.999997E-2	-2.373070E-5
6.999999E-2	-2.344590E-5
7.999998E-2	-2.312300E-5
8.999997E-2	-2.283930E-5
9.999996E-2	-2.255370E-5
1.100000E-1	-2.228960E-5
1.200000E-1	-2.201790E-5
1.300000E-1	-2.174510E-5
1.400000E-1	-2.146090E-5
1.500000E-1	-2.114310E-5
1.600000E-1	-2.082670E-5
1.700000E-1	-2.053060E-5
1.800000E-1	-2.022020E-5
1.900000E-1	-1.992550E-5
2.000000E-1	-1.965590E-5
2.100000E-1	-1.939570E-5
2.200000E-1	-1.909330E-5
2.300000E-1	-1.879480E-5
2.399999E-1	-1.849060E-5
2.500000E-1	-1.819070E-5
2.600000E-1	-1.786880E-5
2.700000E-1	-1.754990E-5
2.800000E-1	-1.723430E-5
2.900000E-1	-1.691370E-5
3.000000E-1	-1.658200E-5
3.100000E-1	-1.626590E-5
3.200000E-1	-1.594800E-5
3.300000E-1	-1.563080E-5
3.400000E-1	-1.536570E-5
3.500000E-1	-1.506150E-5
3.600000E-1	-1.474850E-5
3.699999E-1	-1.446350E-5
3.800000E-1	-1.414080E-5
3.900000E-1	-1.381770E-5
4.000000E-1	-1.348790E-5
4.100000E-1	-1.315080E-5
4.200000E-1	-1.282120E-5
4.299999E-1	-1.250210E-5
4.400000E-1	-1.216770E-5
4.500000E-1	-1.185130E-5
4.600000E-1	-1.150710E-5
4.700000E-1	-1.121700E-5
4.800000E-1	-1.089370E-5
4.899999E-1	-1.054060E-5
4.999999E-1	-1.020820E-5
5.100000E-1	-9.868190E-6
5.200000E-1	-9.541060E-6
5.300000E-1	-9.186210E-6
5.400000E-1	-8.818360E-6
5.500000E-1	-8.465450E-6
5.599999E-1	-8.107550E-6
5.700000E-1	-7.729180E-6
5.800000E-1	-7.361020E-6
5.900000E-1	-6.987220E-6
6.000000E-1	-6.614130E-6
6.100000E-1	-6.234940E-6
6.199999E-1	-5.854930E-6
6.300000E-1	-5.456830E-6
6.400000E-1	-5.056750E-6
6.500000E-1	-4.648480E-6
6.600000E-1	-4.225520E-6
6.700000E-1	-3.798050E-6
6.799999E-1	-3.360520E-6
6.899999E-1	-2.918180E-6
7.000000E-1	-2.470940E-6
7.100000E-1	-2.013020E-6
7.200000E-1	-1.554050E-6
7.300000E-1	-1.083080E-6
7.399999E-1	-6.032790E-7
7.499999E-1	-1.163100E-7
7.599999E-1	3.758020E-7
7.699999E-1	8.746840E-7
7.799999E-1	1.378480E-6
7.900000E-1	1.890670E-6
8.000000E-1	2.406920E-6
8.100000E-1	2.932780E-6
8.200000E-1	3.463980E-6
8.300000E-1	3.999760E-6
8.400000E-1	4.541920E-6
8.500000E-1	5.093400E-6
8.600000E-1	5.652850E-6
8.699999E-1	6.218630E-6
8.799999E-1	6.799500E-6
8.899999E-1	7.391890E-6
8.999999E-1	8.000060E-6
9.099999E-1	8.633410E-6
9.200000E-1	9.272480E-6
9.300000E-1	9.935610E-6
9.400000E-1	1.064480E-5
9.500000E-1	1.135380E-5
9.600000E-1	1.208120E-5
9.700000E-1	1.286040E-5
9.800000E-1	1.365840E-5
9.899999E-1	1.449310E-5
9.999999E-1	1.537740E-5
