Voltage [V]	Current [A]
-3.000000E-1	-1.891330E-5
-2.900000E-1	-1.873850E-5
-2.800000E-1	-1.858180E-5
-2.700000E-1	-1.842050E-5
-2.600000E-1	-1.826530E-5
-2.500000E-1	-1.811900E-5
-2.400000E-1	-1.801810E-5
-2.300000E-1	-1.788590E-5
-2.200000E-1	-1.771810E-5
-2.100000E-1	-1.756130E-5
-2.000000E-1	-1.736470E-5
-1.900000E-1	-1.720670E-5
-1.800000E-1	-1.705070E-5
-1.700000E-1	-1.688000E-5
-1.600000E-1	-1.671720E-5
-1.500000E-1	-1.657650E-5
-1.400000E-1	-1.644340E-5
-1.300000E-1	-1.630040E-5
-1.200000E-1	-1.614940E-5
-1.100000E-1	-1.599280E-5
-1.000000E-1	-1.589320E-5
-9.000002E-2	-1.572950E-5
-8.000001E-2	-1.556860E-5
-7.000002E-2	-1.536690E-5
-6.000002E-2	-1.518660E-5
-5.000001E-2	-1.503950E-5
-4.000002E-2	-1.487050E-5
-3.000003E-2	-1.476850E-5
-2.000001E-2	-1.459830E-5
-1.000002E-2	-1.444210E-5
-2.980232E-8	-1.430430E-5
9.999990E-3	-1.412880E-5
1.999998E-2	-1.394680E-5
2.999997E-2	-1.378780E-5
3.999999E-2	-1.361910E-5
4.999998E-2	-1.349930E-5
5.999997E-2	-1.332730E-5
6.999999E-2	-1.317170E-5
7.999998E-2	-1.298180E-5
8.999997E-2	-1.284230E-5
9.999996E-2	-1.265690E-5
1.100000E-1	-1.249120E-5
1.200000E-1	-1.234190E-5
1.300000E-1	-1.217400E-5
1.400000E-1	-1.201310E-5
1.500000E-1	-1.182440E-5
1.600000E-1	-1.166130E-5
1.700000E-1	-1.151260E-5
1.800000E-1	-1.135810E-5
1.900000E-1	-1.121040E-5
2.000000E-1	-1.104380E-5
2.100000E-1	-1.086980E-5
2.200000E-1	-1.070880E-5
2.300000E-1	-1.052860E-5
2.399999E-1	-1.034840E-5
2.500000E-1	-1.018560E-5
2.600000E-1	-1.000680E-5
2.700000E-1	-9.833510E-6
2.800000E-1	-9.676260E-6
2.900000E-1	-9.496640E-6
3.000000E-1	-9.325350E-6
3.100000E-1	-9.174860E-6
3.200000E-1	-8.997760E-6
3.300000E-1	-8.823990E-6
3.400000E-1	-8.654490E-6
3.500000E-1	-8.471280E-6
3.600000E-1	-8.292350E-6
3.699999E-1	-8.107410E-6
3.800000E-1	-7.926070E-6
3.900000E-1	-7.757150E-6
4.000000E-1	-7.571250E-6
4.100000E-1	-7.384330E-6
4.200000E-1	-7.203360E-6
4.299999E-1	-7.018180E-6
4.400000E-1	-6.837470E-6
4.500000E-1	-6.648880E-6
4.600000E-1	-6.469690E-6
4.700000E-1	-6.291080E-6
4.800000E-1	-6.095900E-6
4.899999E-1	-5.907910E-6
4.999999E-1	-5.715860E-6
5.100000E-1	-5.507270E-6
5.200000E-1	-5.319880E-6
5.300000E-1	-5.117770E-6
5.400000E-1	-4.908510E-6
5.500000E-1	-4.707580E-6
5.599999E-1	-4.492510E-6
5.700000E-1	-4.281640E-6
5.800000E-1	-4.070070E-6
5.900000E-1	-3.836260E-6
6.000000E-1	-3.619730E-6
6.100000E-1	-3.388320E-6
6.199999E-1	-3.158170E-6
6.300000E-1	-2.929580E-6
6.400000E-1	-2.682710E-6
6.500000E-1	-2.434330E-6
6.600000E-1	-2.177200E-6
6.700000E-1	-1.910770E-6
6.799999E-1	-1.639030E-6
6.899999E-1	-1.363380E-6
7.000000E-1	-1.078380E-6
7.100000E-1	-7.936740E-7
7.200000E-1	-4.959760E-7
7.300000E-1	-1.909050E-7
7.399999E-1	1.196640E-7
7.499999E-1	4.378250E-7
7.599999E-1	7.656790E-7
7.699999E-1	1.098870E-6
7.799999E-1	1.441330E-6
7.900000E-1	1.792190E-6
8.000000E-1	2.150870E-6
8.100000E-1	2.518530E-6
8.200000E-1	2.894290E-6
8.300000E-1	3.276720E-6
8.400000E-1	3.670160E-6
8.500000E-1	4.073760E-6
8.600000E-1	4.490140E-6
8.699999E-1	4.920620E-6
8.799999E-1	5.366980E-6
8.899999E-1	5.828870E-6
8.999999E-1	6.305010E-6
9.099999E-1	6.802970E-6
9.200000E-1	7.326750E-6
9.300000E-1	7.861660E-6
9.400000E-1	8.420610E-6
9.500000E-1	9.010070E-6
9.600000E-1	9.627210E-6
9.700000E-1	1.028200E-5
9.800000E-1	1.095360E-5
9.899999E-1	1.166930E-5
9.999999E-1	1.240610E-5
