Voltage [V]	Current [A]
-2.000000E-1	-7.373410E-3
-1.950000E-1	-7.386370E-3
-1.900000E-1	-7.382390E-3
-1.850000E-1	-7.396690E-3
-1.800000E-1	-7.388540E-3
-1.750000E-1	-7.385050E-3
-1.700000E-1	-7.374400E-3
-1.650000E-1	-7.373470E-3
-1.600000E-1	-7.370480E-3
-1.550000E-1	-7.370780E-3
-1.500000E-1	-7.381360E-3
-1.450000E-1	-7.362070E-3
-1.400000E-1	-7.366910E-3
-1.350000E-1	-7.357890E-3
-1.300000E-1	-7.359100E-3
-1.250000E-1	-7.369780E-3
-1.200000E-1	-7.366980E-3
-1.150000E-1	-7.371950E-3
-1.100000E-1	-7.378840E-3
-1.050000E-1	-7.365730E-3
-1.000000E-1	-7.373620E-3
-9.500001E-2	-7.356930E-3
-9.000000E-2	-7.366530E-3
-8.500001E-2	-7.367700E-3
-8.000001E-2	-7.366310E-3
-7.500000E-2	-7.363180E-3
-7.000001E-2	-7.355390E-3
-6.500001E-2	-7.358920E-3
-6.000000E-2	-7.360990E-3
-5.500001E-2	-7.362120E-3
-5.000001E-2	-7.362580E-3
-4.500000E-2	-7.358770E-3
-4.000001E-2	-7.360260E-3
-3.500001E-2	-7.352640E-3
-3.000000E-2	-7.374660E-3
-2.500001E-2	-7.370810E-3
-2.000001E-2	-7.376000E-3
-1.500000E-2	-7.372160E-3
-1.000001E-2	-7.375220E-3
-5.000010E-3	-7.365850E-3
-1.490116E-8	-7.358990E-3
4.999995E-3	-7.349240E-3
9.999990E-3	-7.366510E-3
1.499999E-2	-7.356040E-3
2.000000E-2	-7.357780E-3
2.499999E-2	-7.350340E-3
2.999999E-2	-7.350270E-3
3.500000E-2	-7.346980E-3
3.999999E-2	-7.365830E-3
4.499999E-2	-7.348210E-3
5.000000E-2	-7.356130E-3
5.499999E-2	-7.362280E-3
5.999999E-2	-7.362840E-3
6.499998E-2	-7.360320E-3
6.999998E-2	-7.357260E-3
7.500000E-2	-7.355350E-3
8.000000E-2	-7.355620E-3
8.499999E-2	-7.340870E-3
8.999999E-2	-7.348350E-3
9.499998E-2	-7.344990E-3
9.999998E-2	-7.363930E-3
1.050000E-1	-7.348690E-3
1.100000E-1	-7.342280E-3
1.150000E-1	-7.340090E-3
1.200000E-1	-7.342630E-3
1.250000E-1	-7.345970E-3
1.300000E-1	-7.344160E-3
1.350000E-1	-7.343820E-3
1.400000E-1	-7.341260E-3
1.450000E-1	-7.335180E-3
1.500000E-1	-7.329140E-3
1.550000E-1	-7.327600E-3
1.600000E-1	-7.333760E-3
1.650000E-1	-7.336670E-3
1.700000E-1	-7.324320E-3
1.750000E-1	-7.312260E-3
1.800000E-1	-7.309630E-3
1.850000E-1	-7.305990E-3
1.900000E-1	-7.298560E-3
1.950000E-1	-7.299390E-3
2.000000E-1	-7.287420E-3
2.050000E-1	-7.289160E-3
2.100000E-1	-7.285960E-3
2.150000E-1	-7.286650E-3
2.200000E-1	-7.271710E-3
2.250000E-1	-7.275930E-3
2.300000E-1	-7.280410E-3
2.350000E-1	-7.277800E-3
2.400000E-1	-7.261490E-3
2.450000E-1	-7.272260E-3
2.500000E-1	-7.264860E-3
2.550000E-1	-7.251890E-3
2.600000E-1	-7.249050E-3
2.650000E-1	-7.241600E-3
2.700000E-1	-7.222940E-3
2.750000E-1	-7.217690E-3
2.800000E-1	-7.201170E-3
2.850000E-1	-7.185500E-3
2.900000E-1	-7.178330E-3
2.950000E-1	-7.177720E-3
3.000000E-1	-7.163020E-3
3.050000E-1	-7.139980E-3
3.100000E-1	-7.132520E-3
3.150000E-1	-7.118330E-3
3.200000E-1	-7.085640E-3
3.250000E-1	-7.075870E-3
3.300000E-1	-7.054960E-3
3.350000E-1	-7.032290E-3
3.400000E-1	-7.005340E-3
3.450000E-1	-6.998880E-3
3.500000E-1	-6.970510E-3
3.550000E-1	-6.943360E-3
3.600000E-1	-6.926120E-3
3.650000E-1	-6.879580E-3
3.700000E-1	-6.846380E-3
3.750000E-1	-6.817980E-3
3.800000E-1	-6.776560E-3
3.850000E-1	-6.734500E-3
3.900000E-1	-6.686670E-3
3.950000E-1	-6.634320E-3
4.000000E-1	-6.577470E-3
4.050000E-1	-6.510750E-3
4.100000E-1	-6.446580E-3
4.150000E-1	-6.375380E-3
4.200000E-1	-6.291330E-3
4.250000E-1	-6.197710E-3
4.300000E-1	-6.089310E-3
4.350000E-1	-5.980080E-3
4.400000E-1	-5.850570E-3
4.450000E-1	-5.703160E-3
4.500000E-1	-5.548570E-3
4.550000E-1	-5.357220E-3
4.600000E-1	-5.144920E-3
4.650000E-1	-4.905830E-3
4.700000E-1	-4.640300E-3
4.750000E-1	-4.344020E-3
4.800000E-1	-3.987550E-3
4.850000E-1	-3.603710E-3
4.900000E-1	-3.158930E-3
4.950000E-1	-2.638350E-3
5.000000E-1	-2.051690E-3
5.050000E-1	-1.374350E-3
5.100000E-1	-6.071800E-4
5.150000E-1	2.506440E-4
5.200000E-1	1.231430E-3
5.250000E-1	2.329160E-3
5.300000E-1	3.568350E-3
5.350000E-1	4.932690E-3
5.400000E-1	6.458510E-3
5.450000E-1	8.144270E-3
5.500000E-1	9.978810E-3
5.550000E-1	1.196800E-2
5.600000E-1	1.412630E-2
5.650000E-1	1.645260E-2
5.700000E-1	1.893340E-2
5.750000E-1	2.158270E-2
5.800000E-1	2.437230E-2
5.850000E-1	2.733290E-2
5.900000E-1	3.043610E-2
5.950000E-1	3.368640E-2
6.000000E-1	3.706460E-2
6.050000E-1	4.057680E-2
6.100000E-1	4.420110E-2
6.150000E-1	4.793920E-2
6.200000E-1	5.179200E-2
6.250000E-1	5.574410E-2
6.300000E-1	5.979910E-2
6.350000E-1	6.394200E-2
6.400000E-1	6.818120E-2
6.450000E-1	7.247520E-2
6.500000E-1	7.686650E-2
6.550000E-1	8.132610E-2
6.600000E-1	8.585910E-2
6.650000E-1	9.046220E-2
6.700000E-1	9.511810E-2
6.750000E-1	9.983930E-2
6.800000E-1	1.044640E-1
6.850000E-1	1.092790E-1
6.900000E-1	1.141650E-1
6.950000E-1	1.191060E-1
7.000000E-1	1.240480E-1
